Folder: ToF-SIMS-Data-Treatment/data/XRD_raw_spectra

Note: README.md
# ToF-SIMS-Data-Treatment
All the code for the ToF-SIMS spectra decomposition and metric design and application 
![image](https://github.com/user-attachments/assets/d884f7ee-d3bc-4f6d-a611-c4a3be7295eb)

File: RuIr.csv
6,10302
6.30463,9722
6.60925,9557
6.91388,8724
7.21851,8284
7.52314,8181
7.82776,7775
8.13239,7481
8.43702,7149
8.74164,7107
9.04627,7130
9.3509,6894
9.65553,6640
9.96015,6471
10.26478,6309
10.56941,6271
10.87404,5917
11.17866,5706
11.48329,5592
11.78792,5302
12.09254,5322
12.39717,4803
12.7018,4853
13.00643,4656
13.31105,4272
13.61568,4353
13.92031,4113
14.22493,4191
14.52956,3950
14.83419,4022
15.13882,3829
15.44344,3789
15.74807,3766
16.0527,3669
16.35732,3792
16.66195,3662
16.96658,3521
17.27121,3575
17.57583,3500
17.88046,3553
18.18509,3469
18.48972,3491
18.79434,3363
19.09897,3481
19.4036,3348
19.70822,3343
20.01285,3317
20.31748,3249
20.62211,3310
20.92673,3292
21.23136,3275
21.53599,3205
21.84061,3274
22.14524,3107
22.44987,3109
22.7545,3165
23.05912,3259
23.36375,3223
23.66838,3025
23.973,3026
24.27763,3043
24.58226,3118
24.88689,2930
25.19151,2931
25.49614,2991
25.80077,3029
26.1054,2839
26.41002,2914
26.71465,2879
27.01928,2933
27.3239,2940
27.62853,2970
27.93316,2954
28.23779,3076
28.54241,2958
28.84704,2913
29.15167,2944
29.45629,2881
29.76092,2901
30.06555,2807
30.37018,2871
30.6748,2830
30.97943,2922
31.28406,2964
31.58868,3172
31.89331,2765
32.19794,2950
32.50257,2831
32.80719,2873
33.11182,2867
33.41645,2799
33.72108,2763
34.0257,2746
34.33033,2856
34.63496,2791
34.93958,2904
35.24421,2836
35.54884,2872
35.85347,2917
36.15809,3005
36.46272,2930
36.76735,3127
37.07197,3253
37.3766,3542
37.68123,4863
37.98586,12335
38.29048,18473
38.59511,5869
38.89974,3927
39.20436,3628
39.50899,3534
39.81362,3331
40.11825,3300
40.42287,3469
40.7275,3854
41.03213,4105
41.33676,5278
41.64138,12128
41.94601,22726
42.25064,9158
42.55526,6390
42.85989,6959
43.16452,9958
43.46915,26951
43.77377,83380
44.0784,30904
44.38303,9638
44.68765,6036
44.99228,4843
45.29691,4396
45.60154,3940
45.90616,3652
46.21079,3568
46.51542,3320
46.82004,3342
47.12467,3279
47.4293,3276
47.73393,3141
48.03855,3050
48.34318,3201
48.64781,3011
48.95244,3030
49.25706,2959
49.56169,3050
49.86632,3132
50.17094,2938
50.47557,2981
50.7802,2948
51.08483,2945
51.38945,2956
51.69408,2949
51.99871,2930
52.30333,2965
52.60796,2910
52.91259,2951
53.21722,2925
53.52184,2880
53.82647,2978
54.1311,2848
54.43572,2975
54.74035,3054
55.04498,2983
55.34961,3023
55.65423,3084
55.95886,3313
56.26349,3419
56.56812,3449
56.87274,3591
57.17737,3942
57.482,5067
57.78662,8915
58.09125,14031
58.39588,7785
58.70051,4667
59.00513,3917
59.30976,3573
59.61439,3514
59.91901,3487
60.22364,3389
60.52827,3477
60.8329,3348
61.13752,3596
61.44215,3383
61.74678,3489
62.0514,3367
62.35603,3410
62.66066,3303
62.96529,3380
63.26991,3364
63.57454,3381
63.87917,3423
64.1838,3289
64.48842,3332
64.79305,3264
65.09768,3357
65.4023,3169
65.70693,3341
66.01156,3390
66.31619,3332
66.62081,3465
66.92544,3399
67.23007,3422
67.53469,3429
67.83932,3597
68.14395,3841
68.44858,4571
68.7532,7217
69.05783,17769
69.36246,15797
69.66708,6323
69.97171,4238
70.27634,3583
70.58097,3465
70.88559,3459
71.19022,3227
71.49485,3223
71.79948,3248
72.1041,3222
72.40873,3261
72.71336,3331
73.01798,3261
73.32261,3186
73.62724,3144
73.93187,3170
74.23649,3267
74.54112,3370
74.84575,3302
75.15037,3407
75.455,3439
75.75963,3501
76.06426,3594
76.36888,3596
76.67351,3849
76.97814,4197
77.28276,5294
77.58739,8599
77.89202,17123
78.19665,16395
78.50127,8178
78.8059,4892
79.11053,4240
79.41516,3847
79.71978,3679
80.02441,3617
80.32904,3629
80.63366,3525
80.93829,3692
81.24292,3912
81.54755,4198
81.85217,5909
82.1568,5870
82.46143,4404
82.76605,4277
83.07068,4253
83.37531,4623
83.67994,6073
83.98456,10730
84.28919,22091
84.59382,18430
84.89844,9458
85.20307,8628
85.5077,15604
85.81233,15820
86.11695,8649
86.42158,5175
86.72621,4052
87.03084,3723
87.33546,3637
87.64009,3516
87.94472,3359
88.24934,3287
88.55397,3400
88.8586,3171
89.16323,3272
89.46785,3185
89.77248,3216
89.96287,3295

File: RuPt 80-20.csv
6,3624
6.30468,3508
6.60935,3582
6.91403,3080
7.2187,2947
7.52338,2795
7.82806,2849
8.13273,2626
8.43741,2554
8.74208,2446
9.04676,2410
9.35144,2387
9.65611,2328
9.96079,2189
10.26546,2067
10.57014,2005
10.87482,2046
11.17949,1968
11.48417,1884
11.78884,1780
12.09352,1796
12.3982,1704
12.70287,1621
13.00755,1484
13.31222,1566
13.6169,1474
13.92158,1419
14.22625,1293
14.53093,1362
14.8356,1350
15.14028,1372
15.44496,1339
15.74963,1309
16.05431,1334
16.35898,1368
16.66366,1330
16.96834,1301
17.27301,1200
17.57769,1289
17.88236,1249
18.18704,1185
18.49172,1174
18.79639,1254
19.10107,1223
19.40574,1117
19.71042,1187
20.0151,1155
20.31977,1172
20.62445,1148
20.92912,1213
21.2338,1122
21.53848,1133
21.84315,1189
22.14783,1115
22.4525,1174
22.75718,1168
23.06186,1115
23.36653,1155
23.67121,1132
23.97588,1094
24.28056,1129
24.58524,1057
24.88991,1130
25.19459,1090
25.49926,1060
25.80394,1132
26.10862,1023
26.41329,1030
26.71797,1070
27.02264,1143
27.32732,1079
27.632,1106
27.93667,1098
28.24135,1130
28.54602,1125
28.8507,1121
29.15538,1238
29.46005,1057
29.76473,1127
30.0694,1102
30.37408,1081
30.67876,1133
30.98343,1096
31.28811,1133
31.59278,1080
31.89746,1136
32.20214,1145
32.50681,1061
32.81149,1152
33.11616,1189
33.42084,1194
33.72552,1151
34.03019,1273
34.33487,1210
34.63954,1256
34.94422,1268
35.2489,1339
35.55357,1192
35.85825,1373
36.16292,1336
36.4676,1373
36.77228,1471
37.07695,1643
37.38163,1876
37.6863,2297
37.99098,2699
38.29566,2917
38.60033,2599
38.90501,2599
39.20968,2438
39.51436,2617
39.81904,2798
40.12371,3099
40.42839,3310
40.73306,3731
41.03774,4250
41.34242,4686
41.64709,4750
41.95177,4329
42.25644,4186
42.56112,4209
42.8658,4690
43.17047,5200
43.47515,6051
43.77982,6309
44.0845,5181
44.38918,4234
44.69385,3392
44.99853,2934
45.3032,2586
45.60788,2521
45.91256,2331
46.21723,2096
46.52191,2124
46.82658,2055
47.13126,1832
47.43594,1781
47.74061,1688
48.04529,1625
48.34996,1617
48.65464,1462
48.95932,1493
49.26399,1437
49.56867,1450
49.87334,1409
50.17802,1241
50.4827,1270
50.78737,1299
51.09205,1322
51.39672,1352
51.7014,1306
52.00608,1245
52.31075,1209
52.61543,1333
52.9201,1239
53.22478,1240
53.52946,1242
53.83413,1270
54.13881,1239
54.44348,1345
54.74816,1279
55.05284,1296
55.35751,1324
55.66219,1304
55.96686,1422
56.27154,1448
56.57622,1530
56.88089,1547
57.18557,1638
57.49024,1632
57.79492,1662
58.0996,1645
58.40427,1636
58.70895,1514
59.01362,1496
59.3183,1482
59.62298,1416
59.92765,1418
60.23233,1473
60.537,1425
60.84168,1365
61.14636,1404
61.45103,1450
61.75571,1383
62.06038,1443
62.36506,1380
62.66974,1398
62.97441,1394
63.27909,1416
63.58376,1399
63.88844,1438
64.19312,1439
64.49779,1412
64.80247,1410
65.10714,1369
65.41182,1368
65.7165,1443
66.02117,1437
66.32585,1522
66.63052,1562
66.9352,1612
67.23988,1651
67.54455,1735
67.84923,1903
68.1539,2117
68.45858,2479
68.76326,2956
69.06793,3127
69.37261,2933
69.67728,2350
69.98196,2031
70.28664,1935
70.59131,1742
70.89599,1648
71.20066,1700
71.50534,1569
71.81002,1525
72.11469,1525
72.41937,1525
72.72404,1495
73.02872,1607
73.3334,1520
73.63807,1446
73.94275,1532
74.24742,1531
74.5521,1541
74.85678,1528
75.16145,1592
75.46613,1651
75.7708,1683
76.07548,1783
76.38016,1805
76.68483,1869
76.98951,1897
77.29418,2090
77.59886,2151
77.90354,2178
78.20821,2058
78.51289,1918
78.81756,1825
79.12224,1767
79.42692,1829
79.73159,1738
80.03627,1784
80.34094,1790
80.64562,1879
80.9503,1979
81.25497,2045
81.55965,2159
81.86432,2254
82.169,2397
82.47368,2398
82.77835,2643
83.08303,2809
83.3877,3116
83.69238,3533
83.99706,3830
84.30173,3623
84.60641,3367
84.91108,3148
85.21576,3020
85.52044,2838
85.82511,2684
86.12979,2372
86.43446,2158
86.73914,2011
87.04382,1886
87.34849,1760
87.65317,1779
87.95784,1673
88.26252,1663
88.5672,1634
88.87187,1591
89.17655,1539
89.48122,1531
89.7859,1657
89.97632,1632

File: RuPtPdIr 15-09-22.csv
6,7987,0.420435
6.304676,7567,0.398326
6.609352,7526,0.396168
6.914028,6767,0.356214
7.218704,6490,0.341633
7.52338,6112,0.321735
7.828056,5900,0.310575
8.132732,5631,0.296415
8.437408,5511,0.290098
8.742084,5336,0.280886
9.04676,5123,0.269674
9.351436,5019,0.2642
9.656112,4922,0.259094
9.960788,4771,0.251145
10.2655,4569,0.240512
10.57014,4457,0.234616
10.8748,4316,0.227194
11.1795,4222,0.222246
11.4842,3949,0.207875
11.7888,3868,0.203611
12.09352,3753,0.197558
12.3982,3596,0.189293
12.7029,3385,0.178186
13.0075,3328,0.175186
13.3122,3142,0.165395
13.6169,2998,0.157814
13.9216,2914,0.153393
14.2263,2970,0.15634
14.5309,2912,0.153287
14.8356,2870,0.151076
15.14028,2767,0.145655
15.445,2924,0.153919
15.7496,2836,0.149287
16.0543,2812,0.148023
16.359,2864,0.150761
16.66366,2776,0.146128
16.9683,2754,0.14497
17.273,2719,0.143128
17.5777,2687,0.141443
17.8824,2695,0.141865
18.18704,2786,0.146655
18.4917,2706,0.142444
18.7964,2722,0.143286
19.1011,2693,0.141759
19.4057,2650,0.139496
19.71042,2630,0.138443
20.0151,2595,0.136601
20.3198,2604,0.137074
20.6244,2602,0.136969
20.9291,2461,0.129547
21.2338,2561,0.134811
21.5385,2593,0.136495
21.8432,2529,0.133126
22.1478,2577,0.135653
22.4525,2431,0.127968
22.75718,2551,0.134284
23.0619,2449,0.128915
23.3665,2355,0.123967
23.6712,2429,0.127862
23.9759,2477,0.130389
24.28056,2431,0.127968
24.5852,2502,0.131705
24.8899,2422,0.127494
25.1946,2517,0.132495
25.4993,2391,0.125862
25.80394,2392,0.125915
26.1086,2442,0.128547
26.4133,2449,0.128915
26.718,2462,0.129599
27.0226,2508,0.132021
27.32732,2471,0.130073
27.632,2464,0.129705
27.9367,2467,0.129863
28.2413,2512,0.132231
28.546,2412,0.126967
28.8507,2495,0.131337
29.1554,2625,0.13818
29.4601,2448,0.128862
29.7647,2466,0.12981
30.0694,2497,0.131442
30.37408,2521,0.132705
30.6788,2425,0.127652
30.9834,2465,0.129757
31.2881,2559,0.134705
31.5928,2502,0.131705
31.89746,2458,0.129389
32.2021,2532,0.133284
32.5068,2592,0.136443
32.8115,2629,0.13839
33.1162,2622,0.138022
33.42084,2631,0.138496
33.7255,2692,0.141707
34.0302,2670,0.140549
34.3349,2733,0.143865
34.6395,2696,0.141917
34.94422,2843,0.149655
35.2489,2872,0.151182
35.5536,2911,0.153235
35.8582,3069,0.161552
36.1629,3248,0.170974
36.4676,3310,0.174238
36.7723,3588,0.188872
37.077,3789,0.199453
37.3816,4213,0.221772
37.6863,4916,0.258778
37.99098,5503,0.289677
38.2957,6368,0.335211
38.6003,7060,0.371638
38.905,8181,0.430647
39.2097,9592,0.504922
39.51436,12051,0.634363
39.819,16400,0.863294
40.1237,18995,0.999895
40.4284,17820,0.938043
40.7331,16664,0.877191
41.03774,15148,0.797389
41.3424,13676,0.719903
41.6471,11766,0.619361
41.9518,10682,0.562299
42.2564,9394,0.494499
42.56112,8842,0.465442
42.8658,8710,0.458493
43.1705,8520,0.448492
43.4751,8639,0.454756
43.7798,8457,0.445176
44.0845,7978,0.419961
44.3892,7431,0.391167
44.6939,7391,0.389061
44.9985,7322,0.385429
45.3032,7544,0.397115
45.60788,7759,0.408433
45.9126,8267,0.435174
46.2172,9184,0.483445
46.5219,10268,0.540506
46.8266,9713,0.511291
47.13126,8403,0.442333
47.4359,7599,0.400011
47.7406,6594,0.347107
48.0453,5945,0.312944
48.35,5328,0.280465
48.65464,4815,0.253461
48.9593,4470,0.2353
49.264,4152,0.218561
49.5687,3900,0.205296
49.8733,3735,0.19661
50.17802,3605,0.189767
50.4827,3372,0.177502
50.7874,3415,0.179765
51.092,3162,0.166447
51.3967,3156,0.166131
51.7014,3116,0.164026
52.0061,2969,0.156288
52.3108,3062,0.161183
52.6154,2874,0.151287
52.9201,2978,0.156762
53.22478,2907,0.153024
53.5295,2825,0.148708
53.8341,2952,0.155393
54.1388,2899,0.152603
54.4435,2862,0.150655
54.74816,2857,0.150392
55.0528,2888,0.152024
55.3575,2759,0.145233
55.6622,2911,0.153235
55.9669,2985,0.15713
56.27154,2957,0.155656
56.5762,3014,0.158657
56.8809,3025,0.159236
57.1856,2982,0.156972
57.4902,2970,0.15634
57.79492,2928,0.15413
58.0996,2993,0.157551
58.4043,2927,0.154077
58.7089,3022,0.159078
59.0136,3014,0.158657
59.3183,3055,0.160815
59.623,2955,0.155551
59.9277,2942,0.154867
60.2323,2992,0.157499
60.537,2920,0.153708
60.84168,3010,0.158446
61.1464,2908,0.153077
61.451,3061,0.161131
61.7557,3014,0.158657
62.0604,2988,0.157288
62.36506,3059,0.161025
62.6697,3038,0.15992
62.9744,3115,0.163973
63.2791,3091,0.16271
63.5838,3049,0.160499
63.88844,3126,0.164552
64.1931,3151,0.165868
64.4978,3326,0.17508
64.8025,3256,0.171395
65.1071,3361,0.176923
65.41182,3521,0.185345
65.7165,3606,0.189819
66.0212,3918,0.206243
66.3258,4113,0.216508
66.6305,4365,0.229773
66.9352,4820,0.253724
67.2399,5274,0.277623
67.5446,6473,0.340738
67.8492,7452,0.392272
68.1539,8324,0.438174
68.45858,8794,0.462915
68.7633,8481,0.446439
69.0679,8295,0.436648
69.3726,7466,0.393009
69.6773,6690,0.352161
69.98196,6112,0.321735
70.2866,5625,0.296099
70.5913,5123,0.269674
70.896,4677,0.246197
71.2007,4547,0.239354
71.50534,4201,0.22114
71.81,3909,0.205769
72.1147,3863,0.203348
72.4194,3696,0.194557
72.724,3716,0.19561
73.02872,3755,0.197663
73.3334,3549,0.186819
73.6381,3493,0.183871
73.9427,3504,0.18445
74.2474,3548,0.186766
74.5521,3579,0.188398
74.8568,3567,0.187766
75.1615,3452,0.181713
75.4661,3548,0.186766
75.7708,3647,0.191978
76.07548,3613,0.190188
76.3802,3631,0.191135
76.6848,3669,0.193136
76.9895,3717,0.195662
77.2942,3823,0.201242
77.59886,3929,0.206822
77.9035,3862,0.203295
78.2082,4033,0.212297
78.5129,3987,0.209875
78.8176,4023,0.21177
79.12224,4099,0.215771
79.4269,4206,0.221403
79.7316,4382,0.230668
80.0363,4676,0.246144
80.3409,5045,0.265568
80.64562,5346,0.281413
80.9503,6069,0.319471
81.255,6662,0.350687
81.5596,7964,0.419224
81.8643,8978,0.472601
82.169,9893,0.520766
82.4737,9981,0.525399
82.7784,10280,0.541138
83.083,10015,0.527189
83.3877,9999,0.526346
83.69238,9380,0.493762
83.9971,8913,0.469179
84.3017,8420,0.443228
84.6064,7730,0.406906
84.9111,7195,0.378744
85.21576,6855,0.360846
85.5204,6602,0.347529
85.8251,6342,0.333842
86.1298,6195,0.326104
86.4345,6188,0.325736
86.73914,5978,0.314681
87.0438,5826,0.30668
87.3485,5731,0.301679
87.6532,5483,0.288625
87.9578,5160,0.271622
88.26252,4853,0.255461
88.5672,4655,0.245039
88.8719,4460,0.234774
89.1765,4104,0.216034
89.4812,4043,0.212823
89.7859,3904,0.205506
89.9763,3760,0.197926

File: XRD_Ru-Pd.csv
6,3497
6.30468,3483
6.60935,3392
6.91403,3068
7.2187,2885
7.52338,2744
7.82806,2627
8.13273,2633
8.43741,2559
8.74208,2385
9.04676,2347
9.35144,2356
9.65611,2242
9.96079,2143
10.26546,2228
10.57014,2037
10.87482,1956
11.17949,1962
11.48417,1812
11.78884,1760
12.09352,1720
12.3982,1647
12.70287,1629
13.00755,1557
13.31222,1468
13.6169,1382
13.92158,1350
14.22625,1358
14.53093,1366
14.8356,1395
15.14028,1273
15.44496,1354
15.74963,1330
16.05431,1273
16.35898,1356
16.66366,1281
16.96834,1342
17.27301,1371
17.57769,1299
17.88236,1195
18.18704,1237
18.49172,1271
18.79639,1220
19.10107,1214
19.40574,1164
19.71042,1235
20.0151,1196
20.31977,1198
20.62445,1201
20.92912,1121
21.2338,1179
21.53848,1133
21.84315,1136
22.14783,1153
22.4525,1103
22.75718,1143
23.06186,1086
23.36653,1045
23.67121,1028
23.97588,1079
24.28056,1049
24.58524,1121
24.88991,1125
25.19459,1124
25.49926,1016
25.80394,1052
26.10862,984
26.41329,1034
26.71797,972
27.02264,1036
27.32732,993
27.632,1033
27.93667,1040
28.24135,1059
28.54602,1012
28.8507,1085
29.15538,1180
29.46005,1042
29.76473,1024
30.0694,1022
30.37408,1054
30.67876,1070
30.98343,1060
31.28811,1034
31.59278,1065
31.89746,1113
32.20214,1009
32.50681,1038
32.81149,1043
33.11616,1060
33.42084,1080
33.72552,975
34.03019,1097
34.33487,1115
34.63954,1121
34.94422,1148
35.2489,1100
35.55357,1160
35.85825,1187
36.16292,1231
36.4676,1259
36.77228,1353
37.07695,1518
37.38163,1838
37.6863,2644
37.99098,4241
38.29566,4070
38.60033,2785
38.90501,2117
39.20968,1964
39.51436,1873
39.81904,1829
40.12371,1935
40.42839,2109
40.73306,2476
41.03774,3089
41.34242,4062
41.64709,4561
41.95177,4430
42.25644,3778
42.56112,3804
42.8658,5068
43.17047,7848
43.47515,12175
43.77982,13246
44.0845,8599
44.38918,5100
44.69385,3370
44.99853,2423
45.3032,2013
45.60788,1807
45.91256,1658
46.21723,1572
46.52191,1494
46.82658,1459
47.13126,1346
47.43594,1305
47.74061,1256
48.04529,1214
48.34996,1235
48.65464,1184
48.95932,1201
49.26399,1103
49.56867,1197
49.87334,1190
50.17802,1139
50.4827,1098
50.78737,1124
51.09205,1072
51.39672,1187
51.7014,1100
52.00608,1045
52.31075,1127
52.61543,1129
52.9201,1097
53.22478,1102
53.52946,1087
53.83413,1082
54.13881,1123
54.44348,1147
54.74816,1140
55.05284,1080
55.35751,1214
55.66219,1215
55.96686,1301
56.27154,1301
56.57622,1559
56.88089,1644
57.18557,1903
57.49024,2236
57.79492,2448
58.0996,2444
58.40427,2071
58.70895,1775
59.01362,1577
59.3183,1501
59.62298,1449
59.92765,1368
60.23233,1350
60.537,1337
60.84168,1283
61.14636,1279
61.45103,1248
61.75571,1310
62.06038,1286
62.36506,1228
62.66974,1256
62.97441,1213
63.27909,1286
63.58376,1246
63.88844,1239
64.19312,1258
64.49779,1273
64.80247,1225
65.10714,1306
65.41182,1264
65.7165,1299
66.02117,1254
66.32585,1303
66.63052,1261
66.9352,1376
67.23988,1434
67.54455,1377
67.84923,1632
68.1539,1788
68.45858,2282
68.76326,3084
69.06793,3766
69.37261,3328
69.67728,2413
69.98196,1798
70.28664,1569
70.59131,1388
70.89599,1323
71.20066,1284
71.50534,1334
71.81002,1264
72.11469,1292
72.41937,1212
72.72404,1273
73.02872,1207
73.3334,1198
73.63807,1341
73.94275,1289
74.24742,1215
74.5521,1333
74.85678,1306
75.16145,1391
75.46613,1345
75.7708,1389
76.07548,1537
76.38016,1693
76.68483,1856
76.98951,2212
77.29418,2565
77.59886,2942
77.90354,2972
78.20821,2722
78.51289,2227
78.81756,1942
79.12224,1766
79.42692,1587
79.73159,1543
80.03627,1481
80.34094,1443
80.64562,1501
80.9503,1564
81.25497,1685
81.55965,1796
81.86432,1887
82.169,1907
82.47368,1870
82.77835,2039
83.08303,2142
83.3877,2586
83.69238,3347
83.99706,3945
84.30173,4022
84.60641,3718
84.91108,3571
85.21576,3535
85.52044,3597
85.82511,3224
86.12979,2490
86.43446,2095
86.73914,1665
87.04382,1577
87.34849,1451
87.65317,1350
87.95784,1292
88.26252,1295
88.5672,1285
88.87187,1294
89.17655,1126
89.48122,1209
89.7859,1241
89.97632,1258

File: XRD_Ru-Pt-Pd-Ir-Rh.xy
'Id: "" Comment: "" Operator: "Lab Manager" Anode: "Cu" Scantype: "Coupled TwoTheta/Theta" TimePerStep: "28.8"
5 3.64583
5.25275 3.61111
5.50549 3.4375
5.75824 2.67361
6.01099 3.19444
6.26373 2.29167
6.51648 2.1875
6.76923 2.1875
7.02198 2.01389
7.27472 1.80556
7.52747 2.08333
7.78022 2.1875
8.03296 2.39583
8.28571 1.84028
8.53846 2.43056
8.7912 1.90972
9.04395 2.36111
9.2967 3.02083
9.54944 2.32639
9.80219 2.22222
10.0549 2.5
10.3077 1.97917
10.5604 2.25694
10.8132 2.67361
11.0659 2.60417
11.3187 2.5
11.5714 2.77778
11.8242 2.22222
12.0769 2.46528
12.3297 2.53472
12.5824 2.74306
12.8352 2.95139
13.0879 2.77778
13.3406 2.5
13.5934 1.875
13.8461 2.46528
14.0989 3.125
14.3516 3.61111
14.6044 3.125
14.8571 2.5
15.1099 2.91667
15.3626 3.85417
15.6154 3.85417
15.8681 3.78472
16.1209 3.92361
16.3736 4.20139
16.6264 4.375
16.8791 4.47917
17.1319 4.375
17.3846 4.27083
17.6373 4.65278
17.8901 4.0625
18.1428 4.61806
18.3956 5.79861
18.6483 5.625
18.9011 5.86806
19.1538 6.00694
19.4066 5.83333
19.6593 5.52083
19.9121 6.42361
20.1648 6.07639
20.4176 6.94444
20.6703 6.66667
20.9231 6.31944
21.1758 7.88194
21.4285 6.21528
21.6813 7.1875
21.934 6.84028
22.1868 6.42361
22.4395 6.35417
22.6923 6.94444
22.945 6.84028
23.1978 5.86806
23.4505 5.27778
23.7033 5.72917
23.956 5.45139
24.2088 5.41667
24.4615 5.76389
24.7143 6.14583
24.967 4.82639
25.2198 4.89583
25.4725 5.59028
25.7252 4.96528
25.978 4.79167
26.2307 5
26.4835 4.58333
26.7362 4.72222
26.989 4.23611
27.2417 4.27083
27.4945 4.61806
27.7472 3.85417
28 4.13194
28.2527 3.4375
28.5055 3.95833
28.7582 4.09722
29.011 3.29861
29.2637 3.64583
29.5165 2.8125
29.7692 3.22917
30.0219 3.92361
30.2747 4.0625
30.5274 3.61111
30.7802 4.20139
31.0329 3.64583
31.2857 3.61111
31.5384 3.81944
31.7912 3.36806
32.0439 3.125
32.2967 3.33333
32.5494 3.50694
32.8022 2.77778
33.0549 3.33333
33.3077 2.95139
33.5604 3.99306
33.8131 2.8125
34.0659 3.05556
34.3186 4.20139
34.5714 4.34028
34.8241 3.71528
35.0769 3.47222
35.3296 4.27083
35.5824 3.33333
35.8351 3.78472
36.0879 3.40278
36.3406 4.51389
36.5934 4.47917
36.8461 3.81944
37.0989 3.99306
37.3516 3.99306
37.6044 3.85417
37.8571 4.40972
38.1098 4.16667
38.3626 5.72917
38.6153 6.28472
38.8681 7.39583
39.1208 7.70833
39.3736 10.0347
39.6263 12.8125
39.8791 14.4444
40.1318 15
40.3846 18.8542
40.6373 17.0139
40.8901 14.9653
41.1428 14.8264
41.3956 11.5625
41.6483 9.86111
41.9011 8.64583
42.1538 7.5
42.4065 5.625
42.6593 4.58333
42.912 4.82639
43.1648 4.61806
43.4175 3.64583
43.6703 4.16667
43.923 3.78472
44.1758 3.88889
44.4285 3.36806
44.6813 3.05556
44.934 4.09722
45.1868 3.95833
45.4395 4.58333
45.6923 4.82639
45.945 5.03472
46.1977 5.48611
46.4505 6.38889
46.7032 6.94444
46.956 7.70833
47.2087 7.67361
47.4615 6.49306
47.7142 6.875
47.967 5.41667
48.2197 4.13194
48.4725 3.4375
48.7252 4.30556
48.978 3.125
49.2307 2.63889
49.4835 2.63889
49.7362 2.70833
49.989 1.77083
50.2417 1.94444
50.4944 2.01389
50.7472 2.53472
50.9999 1.45833
51.2527 1.66667
51.5054 1.70139
51.7582 2.22222
52.0109 1.80556
52.2637 1.21528
52.5164 1.52778
52.7692 1.97917
53.0219 1.63194
53.2747 1.90972
53.5274 2.01389
53.7802 1.80556
54.0329 1.90972
54.2856 1.73611
54.5384 2.15278
54.7911 2.01389
55.0439 2.08333
55.2966 1.77083
55.5494 1.14583
55.8021 1.80556
56.0549 1.66667
56.3076 1.35417
56.5604 1.875
56.8131 1.21528
57.0659 2.60417
57.3186 1.63194
57.5714 1.45833
57.8241 1.21528
58.0769 1.84028
58.3296 1.63194
58.5823 2.04861
58.8351 1.875
59.0878 1.42361
59.3406 1.52778
59.5933 2.15278
59.8461 1.59722
60.0988 1.73611
60.3516 1.875
60.6043 1.90972
60.8571 2.08333
61.1098 1.63194
61.3626 1.59722
61.6153 1.49306
61.8681 2.11806
62.1208 2.11806
62.3736 1.66667
62.6263 1.97917
62.879 2.15278
63.1318 2.22222
63.3845 2.1875
63.6373 2.67361
63.89 1.97917
64.1428 2.08333
64.3955 2.04861
64.6483 2.04861
64.901 2.04861
65.1538 1.59722
65.4065 2.04861
65.6593 2.11806
65.912 2.08333
66.1648 2.04861
66.4175 2.25694
66.6702 1.97917
66.923 2.53472
67.1757 2.91667
67.4285 2.60417
67.6812 2.53472
67.934 2.95139
68.1867 3.05556
68.4395 3.75
68.6922 3.47222
68.945 3.71528
69.1977 3.92361
69.4505 2.98611
69.7032 2.8125
69.956 2.95139
70.2087 2.56944
70.4615 2.15278
70.7142 2.1875
70.9669 2.22222
71.2197 1.875
71.4724 1.73611
71.7252 1.66667
71.9779 1.49306
72.2307 1.63194
72.4834 1.14583
72.7362 1.21528
72.9889 1.31944
73.2417 1.49306
73.4944 1.52778
73.7472 1.59722
73.9999 1.38889
74.2527 1.25
74.5054 1.28472
74.7582 1.52778
75.0109 1.45833
75.2636 1.35417
75.5164 1.11111
75.7691 1.31944
76.0219 1.5625
76.2746 1.04167
76.5274 1.70139
76.7801 1.14583
77.0329 1.07639
77.2856 1.63194
77.5384 1.31944
77.7911 1.38889
78.0439 1.21528
78.2966 1.42361
78.5494 1.21528
78.8021 1.70139
79.0548 1.52778
79.3076 1.18056
79.5603 1.45833
79.8131 1.07639
80.0064 1.63194