Folder: ToF-SIMS-Data-Treatment/data/XRD_raw_spectra (part 2)

File: XRD_Ru-Pt-Pd.csv
10,6604
10.2836,6408
10.5673,6675
10.8509,6298
11.1345,6324
11.4181,5798
11.7018,5994
11.9854,5670
12.269,5564
12.5526,5310
12.8363,5131
13.1199,4871
13.4035,4901
13.6871,4611
13.9708,4321
14.2544,4284
14.538,4208
14.8216,4166
15.1053,4040
15.3889,4088
15.6725,4088
15.9562,3845
16.2398,3899
16.5234,3876
16.807,3874
17.09066,3824
17.3743,3786
17.6579,3754
17.9415,3702
18.2252,3662
18.5088,3621
18.7924,3653
19.076,3548
19.3597,3540
19.6433,3447
19.9269,3542
20.2106,3500
20.4942,3475
20.7778,3361
21.0614,3423
21.3451,3213
21.6287,3442
21.9123,3326
22.1959,3337
22.4796,3171
22.7632,3246
23.0468,3228
23.3304,3128
23.6141,3140
23.8977,3036
24.18132,3096
24.4649,3092
24.7486,3125
25.0322,3141
25.3158,3062
25.5995,3040
25.8831,2963
26.1667,3067
26.4503,2898
26.734,2964
27.0176,3095
27.3012,3003
27.5848,2981
27.8685,2931
28.1521,3036
28.4357,2962
28.7193,3037
29.003,2971
29.2866,2946
29.5702,2914
29.8538,2940
30.1375,3031
30.4211,2938
30.7047,3050
30.9884,2800
31.27198,2863
31.5556,2940
31.8392,3098
32.1229,2900
32.4065,3070
32.6901,3078
32.9737,2938
33.2574,3147
33.541,3178
33.8246,3067
34.1082,3143
34.3919,3149
34.6755,3250
34.9591,3298
35.2427,3299
35.5264,3482
35.81,3483
36.0936,3566
36.3773,3685
36.6609,3916
36.9445,4289
37.2281,4678
37.5118,5838
37.7954,7414
38.079,9181
38.36264,9315
38.6463,8758
38.9299,8469
39.2135,8924
39.4971,10824
39.7808,14845
40.0644,18419
40.348,16446
40.6317,13933
40.9153,13735
41.1989,14132
41.4825,14389
41.7662,13490
42.0498,12171
42.3334,11548
42.617,12166
42.9007,13695
43.1843,16531
43.4679,19220
43.7515,19579
44.0352,16599
44.3188,12943
44.6024,10742
44.886,9140
45.1697,8267
45.4533,7667
45.7369,7885
46.0206,8167
46.3042,9122
46.5878,9695
46.8714,8509
47.1551,6764
47.4387,5763
47.7223,5213
48.0059,4833
48.2896,4318
48.5732,4112
48.8568,3998
49.1404,3812
49.4241,3628
49.7077,3531
49.9913,3380
50.2749,3302
50.5586,3259
50.8422,3239
51.1258,3297
51.4095,3251
51.6931,2982
51.9767,3035
52.2603,3132
52.54396,3009
52.8276,3039
53.1112,2942
53.3948,2992
53.6785,3009
53.9621,3085
54.2457,2975
54.5293,3070
54.813,3107
55.0966,3170
55.3802,3045
55.6639,3155
55.9475,3379
56.2311,3379
56.5147,3561
56.7984,3765
57.082,3959
57.3656,4144
57.6492,4280
57.9329,4295
58.2165,4234
58.5001,4091
58.7837,3878
59.0674,3566
59.351,3493
59.63462,3437
59.9182,3484
60.2019,3363
60.4855,3364
60.7691,3217
61.0528,3201
61.3364,3374
61.62,3337
61.9036,3214
62.1873,3399
62.4709,3229
62.7545,3356
63.0381,3371
63.3218,3236
63.6054,3312
63.889,3380
64.1726,3231
64.4563,3341
64.7399,3493
65.0235,3295
65.3071,3449
65.5908,3514
65.8744,3639
66.158,3712
66.4417,3968
66.72528,4264
67.0089,4488
67.2925,5042
67.5762,6186
67.8598,7294
68.1434,8557
68.427,8977
68.7107,9115
68.9943,9324
69.2779,8462
69.5615,7132
69.8452,5923
70.1288,5296
70.4124,4713
70.696,4309
70.9797,3956
71.2633,3926
71.5469,3763
71.8306,3711
72.1142,3761
72.3978,3677
72.6814,3517
72.9651,3533
73.2487,3483
73.5323,3527
73.81594,3494
74.0996,3734
74.3832,3656
74.6668,3856
74.9504,3913
75.2341,3882
75.5177,3907
75.8013,4177
76.085,4384
76.3686,4626
76.6522,4892
76.9358,5202
77.2195,5296
77.5031,5471
77.7867,5504
78.0703,5404
78.354,5130
78.6376,4809
78.9212,4602
79.2048,4584
79.4885,4575
79.7721,4530
80.0557,4531
80.3393,4842
80.623,5022
80.9066,5466
81.1902,6125
81.4739,7033
81.7575,8174
82.0411,9141
82.3247,9362
82.6084,8688
82.892,8642
83.1756,8765
83.4592,9254
83.7429,9971
84.0265,9998
84.3101,9625
84.5937,8782
84.8774,8431
85.161,8163
85.4446,7708
85.7282,7162
86.0119,6750
86.2955,6324
86.5791,6104
86.8628,5713
87.1464,5033
87.43,4562
87.7136,4268
87.99726,4204
88.2809,3998
88.5645,3811
88.8481,3737
89.1318,3643
89.4154,3592
89.699,3682
89.9826,3737
90.0181,3612

File: XRD_Ru-Rh.csv
10,6511
10.2836,6422
10.5673,6137
10.8509,6020
11.1345,5860
11.4181,5918
11.7018,5659
11.9854,5645
12.269,5354
12.5526,5171
12.8363,5025
13.1199,4824
13.4035,4650
13.6871,4529
13.9708,4151
14.2544,4206
14.538,3940
14.8216,3940
15.1053,3855
15.3889,3863
15.6725,3857
15.9562,3877
16.2398,3846
16.5234,3769
16.807,3689
17.09066,3639
17.3743,3585
17.6579,3480
17.9415,3497
18.2252,3632
18.5088,3423
18.7924,3554
19.076,3521
19.3597,3393
19.6433,3299
19.9269,3437
20.2106,3413
20.4942,3293
20.7778,3177
21.0614,3246
21.3451,3187
21.6287,3178
21.9123,3118
22.1959,3036
22.4796,3012
22.7632,3048
23.0468,2992
23.3304,2980
23.6141,3017
23.8977,2886
24.18132,2798
24.4649,2817
24.7486,2897
25.0322,2816
25.3158,2837
25.5995,2793
25.8831,2837
26.1667,2731
26.4503,2785
26.734,2658
27.0176,2695
27.3012,2760
27.5848,2716
27.8685,2638
28.1521,2756
28.4357,2673
28.7193,2681
29.003,2679
29.2866,2672
29.5702,2630
29.8538,2613
30.1375,2708
30.4211,2567
30.7047,2607
30.9884,2550
31.27198,2580
31.5556,2590
31.8392,2554
32.1229,2481
32.4065,2521
32.6901,2517
32.9737,2446
33.2574,2494
33.541,2477
33.8246,2438
34.1082,2435
34.3919,2590
34.6755,2424
34.9591,2427
35.2427,2461
35.5264,2463
35.81,2569
36.0936,2436
36.3773,2559
36.6609,2478
36.9445,2612
37.2281,2667
37.5118,2971
37.7954,3849
38.079,8743
38.36264,13871
38.6463,5183
38.9299,3269
39.2135,2976
39.4971,2853
39.7808,2757
40.0644,2808
40.348,2715
40.6317,2847
40.9153,3011
41.1989,3337
41.4825,4310
41.7662,9831
42.0498,15015
42.3334,6731
42.617,4662
42.9007,4747
43.1843,6100
43.4679,12639
43.7515,42340
44.0352,43290
44.3188,12150
44.6024,5739
44.886,4147
45.1697,3484
45.4533,3201
45.7369,3016
46.0206,2872
46.3042,2773
46.5878,2789
46.8714,2743
47.1551,2621
47.4387,2583
47.7223,2609
48.0059,2454
48.2896,2487
48.5732,2604
48.8568,2553
49.1404,2494
49.4241,2399
49.7077,2435
49.9913,2526
50.2749,2511
50.5586,2419
50.8422,2469
51.1258,2458
51.4095,2393
51.6931,2405
51.9767,2375
52.2603,2527
52.54396,2402
52.8276,2483
53.1112,2491
53.3948,2438
53.6785,2494
53.9621,2603
54.2457,2366
54.5293,2456
54.813,2537
55.0966,2543
55.3802,2499
55.6639,2586
55.9475,2729
56.2311,2738
56.5147,2822
56.7984,2916
57.082,3104
57.3656,3429
57.6492,4164
57.9329,7003
58.2165,9908
58.5001,6150
58.7837,3862
59.0674,3287
59.351,3087
59.63462,2915
59.9182,2947
60.2019,2910
60.4855,3020
60.7691,2986
61.0528,2936
61.3364,2938
61.62,2947
61.9036,2987
62.1873,3056
62.4709,3068
62.7545,2953
63.0381,3002
63.3218,2976
63.6054,2982
63.889,2941
64.1726,2995
64.4563,2885
64.7399,2917
65.0235,2861
65.3071,2975
65.5908,2821
65.8744,2871
66.158,2890
66.4417,2950
66.72528,2830
67.0089,2849
67.2925,2867
67.5762,2905
67.8598,3010
68.1434,3133
68.427,3471
68.7107,4149
68.9943,6823
69.2779,13449
69.5615,9865
69.8452,4908
70.1288,3444
70.4124,3147
70.696,2998
70.9797,2912
71.2633,2821
71.5469,2901
71.8306,2933
72.1142,2802
72.3978,2790
72.6814,2815
72.9651,2838
73.2487,2857
73.5323,2965
73.81594,2842
74.0996,2798
74.3832,2783
74.6668,2889
74.9504,3051
75.2341,2927
75.5177,3018
75.8013,3022
76.085,3073
76.3686,3049
76.6522,3069
76.9358,3309
77.2195,3661
77.5031,4319
77.7867,7112
78.0703,12412
78.354,11578
78.6376,6321
78.9212,4247
79.2048,3496
79.4885,3402
79.7721,3226
80.0557,3208
80.3393,3217
80.623,3303
80.9066,3131
81.1902,3260
81.4739,3307
81.7575,3592
82.0411,4772
82.3247,4688
82.6084,3598
82.892,3534
83.1756,3550
83.4592,3489
83.7429,4149
84.0265,5740
84.3101,11141
84.5937,15584
84.8774,10499
85.161,6166
85.4446,6660
85.7282,11422
86.0119,11224
86.2955,6661
86.5791,4214
86.8628,3611
87.1464,3243
87.43,3245
87.7136,3119
87.99726,3020
88.2809,2988
88.5645,2958
88.8481,2956
89.1318,2861
89.4154,2887
89.699,2873
89.9826,2873
90.0181,2865

File: XRD_Ru.xy
'Id: "" Comment: "" Operator: "Bruker Service" Anode: "Cu" Scantype: "Coupled TwoTheta/Theta" TimePerStep: "28.8"
5 3.54167
5.2525 2.98611
5.505 3.15972
5.7575 2.08333
6.01 2.01389
6.2625 2.22222
6.515 1.5625
6.7675 2.01389
7.02 1.59722
7.2725 1.49306
7.525 1.28472
7.7775 1.18056
8.03 1.14583
8.2825 1.31944
8.535 1.11111
8.7875 1.49306
9.04 1.59722
9.2925 1.04167
9.545 1.14583
9.7975 1.18056
10.05 1.18056
10.3025 1.04167
10.555 0.729167
10.8075 1.00694
11.06 1.35417
11.3125 1.5625
11.565 0.9375
11.8175 1.18056
12.07 1.25
12.3225 1.14583
12.575 1.42361
12.8275 0.972222
13.08 1.21528
13.3325 0.972222
13.585 1.18056
13.8375 0.694444
14.09 1.49306
14.3425 0.902778
14.595 1.21528
14.8475 1.00694
15.1 1.42361
15.3525 0.972222
15.605 1.21528
15.8575 1.31944
16.11 1.18056
16.3625 1.11111
16.615 1.04167
16.8675 1.21528
17.12 1.45833
17.3725 1.18056
17.625 1.42361
17.8775 1.21528
18.13 2.04861
18.3825 1.73611
18.635 2.01389
18.8875 1.25
19.14 1.45833
19.3925 1.45833
19.645 1.25
19.8975 1.18056
20.15 1.28472
20.4025 1.31944
20.655 1.25
20.9075 1.45833
21.16 1.42361
21.4125 1.5625
21.665 2.04861
21.9175 0.9375
22.17 1.63194
22.4225 1.94444
22.675 1.5625
22.9275 1.63194
23.18 1.80556
23.4325 1.42361
23.685 1.63194
23.9375 1.38889
24.19 1.11111
24.4425 1.73611
24.695 1.49306
24.9475 1.70139
25.2 1.45833
25.4525 1.42361
25.705 1.5625
25.9575 1.70139
26.21 1.90972
26.4625 1.66667
26.715 1.77083
26.9675 1.73611
27.22 1.73611
27.4725 1.80556
27.725 1.875
27.9775 1.73611
28.23 1.84028
28.4825 1.45833
28.735 2.08333
28.9875 1.94444
29.24 2.04861
29.4925 2.04861
29.745 1.875
29.9975 2.22222
30.25 1.73611
30.5025 1.80556
30.755 1.45833
31.0075 1.45833
31.26 2.11806
31.5125 1.80556
31.765 2.11806
32.0175 1.77083
32.27 2.29167
32.5225 2.22222
32.775 2.15278
33.0275 2.63889
33.28 2.88194
33.5325 2.77778
33.785 2.43056
34.0375 3.29861
34.29 1.80556
34.5425 2.60417
34.795 2.63889
35.0475 2.15278
35.3 3.15972
35.5525 3.22917
35.805 3.47222
36.0575 3.125
36.31 2.91667
36.5625 4.13194
36.815 4.34028
37.0675 5.90278
37.32 6.77083
37.5725 7.53472
37.825 9.89583
38.0775 11.8056
38.33 14.4097
38.5825 13.3333
38.835 11.9792
39.0875 8.33333
39.34 7.70833
39.5925 8.19444
39.845 7.36111
40.0975 8.75
40.35 6.77083
40.6025 8.81944
40.855 9.09722
41.1075 10.3819
41.36 12.6042
41.6125 15.5556
41.865 16.8403
42.1175 19.375
42.37 22.3958
42.6225 19.5139
42.875 24.7222
43.1275 26.2153
43.38 31.5625
43.6325 35.9375
43.885 42.8819
44.1375 41.3194
44.39 31.2847
44.6425 24.4792
44.895 18.3681
45.1475 14.2014
45.4 11.0069
45.6525 8.81944
45.905 7.95139
46.1575 5.17361
46.41 5.625
46.6625 4.0625
46.915 4.51389
47.1675 3.88889
47.42 4.09722
47.6725 3.57639
47.925 3.15972
48.1775 3.125
48.43 3.78472
48.6825 3.40278
48.935 2.53472
49.1875 3.125
49.44 2.8125
49.6925 2.84722
49.945 2.63889
50.1975 3.26389
50.45 2.60417
50.7025 2.95139
50.955 3.47222
51.2075 2.63889
51.46 2.36111
51.7125 1.80556
51.965 3.02083
52.2175 2.70833
52.47 2.60417
52.7225 2.63889
52.975 2.77778
53.2275 2.63889
53.48 2.70833
53.7325 2.84722
53.985 2.95139
54.2375 2.98611
54.49 3.33333
54.7425 3.54167
54.995 3.02083
55.2475 3.50694
55.5 3.68056
55.7525 3.61111
56.005 3.26389
56.2575 4.34028
56.51 4.375
56.7625 4.30556
57.015 4.79167
57.2675 5.13889
57.52 5.76389
57.7725 5.83333
58.025 6.35417
58.2775 6.90972
58.53 6.25
58.7825 6.45833
59.035 5.45139
59.2875 5.34722
59.54 4.75694
59.7925 5.65972
60.045 4.72222
60.2975 4.34028
60.55 5.20833
60.8025 4.79167
61.055 4.47917
61.3075 4.61806
61.56 4.34028
61.8125 4.6875
62.065 4.58333
62.3175 4.65278
62.57 4.40972
62.8225 4.47917
63.075 4.58333
63.3275 4.61806
63.58 4.27083
63.8325 4.09722
64.085 4.0625
64.3375 3.99306
64.59 4.47917
64.8425 4.16667
65.095 4.16667
65.3475 3.22917
65.6 3.99306
65.8525 4.27083
66.105 3.81944
66.3575 3.78472
66.61 4.86111
66.8625 4.20139
67.115 4.44444
67.3675 3.71528
67.62 5.10417
67.8725 5.52083
68.125 5.45139
68.3775 7.15278
68.63 6.77083
68.8825 8.75
69.135 8.57639
69.3875 9.6875
69.64 9.30556
69.8925 8.64583
70.145 6.84028
70.3975 6.28472
70.65 5.03472
70.9025 5
71.155 5.03472
71.4075 4.61806
71.66 3.85417
71.9125 4.23611
72.165 3.26389
72.4175 3.61111
72.67 3.61111
72.9225 3.61111
73.175 3.61111
73.4275 3.92361
73.68 3.50694
73.9325 3.75
74.185 3.85417
74.4375 3.57639
74.69 3.85417
74.9425 3.75
75.195 3.95833
75.4475 4.40972
75.7 5.17361
75.9525 4.34028
76.205 5
76.4575 5.45139
76.7099 5.59028
76.9624 5.69444
77.2149 7.22222
77.4674 7.11806
77.7199 7.36111
77.9724 7.56944
78.2249 9.02778
78.4774 9.65278
78.7299 8.125
78.9824 6.97917
79.2349 6.35417
79.4874 6.90972
79.7399 6.94444
79.9924 6.42361
80.0073 5.9375